{
  "resourceType": "Bundle",
  "id": "cdisc-pilot-lzzt",
  "identifier": {
    "system": "urn:ietf:rfc:3986",
    "value": "urn:uuid:FAKE-UUID"
  },
  "type": "transaction",
  "timestamp": "2024-12-25T00:00:00.000000+00:00",
  "entry": [
    {
      "fullUrl": "urn:uuid:FAKE-UUID",
      "resource": {
        "resourceType": "ResearchStudy",
        "identifier": [
          {
            "type": {
              "text": "Clinical Study Sponsor"
            },
            "system": "https://example.org/sponsor-identifier",
            "value": "H2Q-MC-LZZT"
          },
          {
            "type": {
              "text": "Study Registry"
            },
            "system": "https://example.org/sponsor-identifier",
            "value": "NCT12345678"
          },
          {
            "type": {
              "text": "Amendment Identifier"
            },
            "system": "https://example.org/amendment-identifier",
            "value": ""
          }
        ],
        "version": "2",
        "title": "Safety and Efficacy of the Xanomeline Transdermal Therapeutic System (TTS) in Patients with Mild to Moderate Alzheimer's Disease",
        "label": [
          {
            "type": {
              "coding": [
                {
                  "system": "http://www.cdisc.org",
                  "version": "2024-09-27",
                  "code": "C94108",
                  "display": "Study Acronym"
                }
              ]
            },
            "value": "LZZT"
          },
          {
            "type": {
              "coding": [
                {
                  "system": "http://www.cdisc.org",
                  "version": "2024-09-27",
                  "code": "C99905x1",
                  "display": "Brief Study Title"
                }
              ]
            },
            "value": "Xanomeline (LY246708)"
          }
        ],
        "protocol": [
          {
            "reference": "PlanDefinition/scheduletimeline-4"
          }
        ],
        "date": "2006-06-01",
        "status": "active",
        "phase": {
          "coding": [
            {
              "system": "http://www.cdisc.org",
              "version": "2024-09-27",
              "code": "C15601",
              "display": "Phase II Trial"
            }
          ],
          "text": "Phase II Trial"
        },
        "associatedParty": [
          {
            "role": {
              "coding": [
                {
                  "system": "http://hl7.org/fhir/research-study-party-role",
                  "code": "sponsor",
                  "display": "sponsor"
                }
              ]
            },
            "party": {
              "reference": "Organization/FAKE-UUID"
            }
          }
        ],
        "progressStatus": [
          {
            "state": {
              "coding": [
                {
                  "system": "http://hl7.org/fhir/research-study-party-role",
                  "code": "sponsor-approved",
                  "display": "sponsor apporval date"
                }
              ]
            },
            "period": {
              "start": "2006-06-01"
            }
          }
        ]
      },
      "request": {
        "method": "PUT",
        "url": "ResearchStudy"
      }
    },
    {
      "fullUrl": "urn:uuid:FAKE-UUID",
      "resource": {
        "resourceType": "PlanDefinition",
        "id": "scheduletimeline-4",
        "identifier": [
          {
            "use": "usual",
            "type": {
              "coding": [
                {
                  "system": "http://terminology.hl7.org/CodeSystem/v2-0203",
                  "code": "PLAC"
                }
              ]
            },
            "value": "Main Timeline"
          }
        ],
        "title": "Main Timeline",
        "type": {
          "coding": [
            {
              "system": "http://terminology.hl7.org/CodeSystem/plan-definition-type",
              "code": "clinical-protocol"
            }
          ]
        },
        "status": "active",
        "purpose": "This is the main timeline for the study design.",
        "action": [
          {
            "id": "scheduledactivityinstance-9",
            "title": "Screen One",
            "relatedAction": [
              {
                "targetId": "scheduledactivityinstance-11",
                "relationship": "before",
                "offsetDuration": {
                  "value": 2,
                  "unit": "w",
                  "system": "http://unitsofmeasure.org"
                }
              }
            ],
            "definitionCanonical": "http://d4k.dk/fhir/vulcan-soa/cdisc-pilot-lzzt/PlanDefinition/screen1"
          },
          {
            "id": "scheduledactivityinstance-10",
            "title": "Screen Two",
            "relatedAction": [
              {
                "extension": [
                  {
                    "url": "http://hl7.org/fhir/uv/vulcan-schedule/StructureDefinition/AcceptableOffsetRangeSoa",
                    "valueRange": {
                      "low": {
                        "value": 4,
                        "unit": "h",
                        "system": "http://unitsofmeasure.org"
                      },
                      "high": {
                        "value": 0,
                        "unit": "h",
                        "system": "http://unitsofmeasure.org"
                      }
                    }
                  }
                ],
                "targetId": "scheduledactivityinstance-11",
                "relationship": "before",
                "offsetDuration": {
                  "value": 2,
                  "unit": "d",
                  "system": "http://unitsofmeasure.org"
                }
              }
            ],
            "definitionCanonical": "http://d4k.dk/fhir/vulcan-soa/cdisc-pilot-lzzt/PlanDefinition/screen2"
          },
          {
            "id": "scheduledactivityinstance-11",
            "title": "Dose",
            "definitionCanonical": "http://d4k.dk/fhir/vulcan-soa/cdisc-pilot-lzzt/PlanDefinition/dose"
          },
          {
            "id": "scheduledactivityinstance-12",
            "title": "Week 2",
            "relatedAction": [
              {
                "extension": [
                  {
                    "url": "http://hl7.org/fhir/uv/vulcan-schedule/StructureDefinition/AcceptableOffsetRangeSoa",
                    "valueRange": {
                      "low": {
                        "value": 3,
                        "unit": "d",
                        "system": "http://unitsofmeasure.org"
                      },
                      "high": {
                        "value": 3,
                        "unit": "d",
                        "system": "http://unitsofmeasure.org"
                      }
                    }
                  }
                ],
                "targetId": "scheduledactivityinstance-11",
                "relationship": "after",
                "offsetDuration": {
                  "value": 2,
                  "unit": "w",
                  "system": "http://unitsofmeasure.org"
                }
              }
            ],
            "definitionCanonical": "http://d4k.dk/fhir/vulcan-soa/cdisc-pilot-lzzt/PlanDefinition/wk2"
          },
          {
            "id": "scheduledactivityinstance-13",
            "title": "Week 4",
            "relatedAction": [
              {
                "extension": [
                  {
                    "url": "http://hl7.org/fhir/uv/vulcan-schedule/StructureDefinition/AcceptableOffsetRangeSoa",
                    "valueRange": {
                      "low": {
                        "value": 3,
                        "unit": "d",
                        "system": "http://unitsofmeasure.org"
                      },
                      "high": {
                        "value": 3,
                        "unit": "d",
                        "system": "http://unitsofmeasure.org"
                      }
                    }
                  }
                ],
                "targetId": "scheduledactivityinstance-11",
                "relationship": "after",
                "offsetDuration": {
                  "value": 4,
                  "unit": "w",
                  "system": "http://unitsofmeasure.org"
                }
              }
            ],
            "definitionCanonical": "http://d4k.dk/fhir/vulcan-soa/cdisc-pilot-lzzt/PlanDefinition/wk4"
          },
          {
            "id": "scheduledactivityinstance-14",
            "title": "Week 6",
            "relatedAction": [
              {
                "extension": [
                  {
                    "url": "http://hl7.org/fhir/uv/vulcan-schedule/StructureDefinition/AcceptableOffsetRangeSoa",
                    "valueRange": {
                      "low": {
                        "value": 3,
                        "unit": "d",
                        "system": "http://unitsofmeasure.org"
                      },
                      "high": {
                        "value": 3,
                        "unit": "d",
                        "system": "http://unitsofmeasure.org"
                      }
                    }
                  }
                ],
                "targetId": "scheduledactivityinstance-11",
                "relationship": "after",
                "offsetDuration": {
                  "value": 6,
                  "unit": "w",
                  "system": "http://unitsofmeasure.org"
                }
              }
            ],
            "definitionCanonical": "http://d4k.dk/fhir/vulcan-soa/cdisc-pilot-lzzt/PlanDefinition/wk6"
          },
          {
            "id": "scheduledactivityinstance-15",
            "title": "Week 8",
            "relatedAction": [
              {
                "extension": [
                  {
                    "url": "http://hl7.org/fhir/uv/vulcan-schedule/StructureDefinition/AcceptableOffsetRangeSoa",
                    "valueRange": {
                      "low": {
                        "value": 3,
                        "unit": "d",
                        "system": "http://unitsofmeasure.org"
                      },
                      "high": {
                        "value": 3,
                        "unit": "d",
                        "system": "http://unitsofmeasure.org"
                      }
                    }
                  }
                ],
                "targetId": "scheduledactivityinstance-11",
                "relationship": "after",
                "offsetDuration": {
                  "value": 8,
                  "unit": "w",
                  "system": "http://unitsofmeasure.org"
                }
              }
            ],
            "definitionCanonical": "http://d4k.dk/fhir/vulcan-soa/cdisc-pilot-lzzt/PlanDefinition/wk8"
          },
          {
            "id": "scheduledactivityinstance-16",
            "title": "Week NPI",
            "relatedAction": [
              {
                "targetId": "scheduledactivityinstance-15",
                "relationship": "after",
                "offsetDuration": {
                  "value": 2,
                  "unit": "w",
                  "system": "http://unitsofmeasure.org"
                }
              }
            ],
            "definitionCanonical": "http://d4k.dk/fhir/vulcan-soa/cdisc-pilot-lzzt/PlanDefinition/wk8n"
          },
          {
            "id": "scheduledactivityinstance-17",
            "title": "Week 12",
            "relatedAction": [
              {
                "extension": [
                  {
                    "url": "http://hl7.org/fhir/uv/vulcan-schedule/StructureDefinition/AcceptableOffsetRangeSoa",
                    "valueRange": {
                      "low": {
                        "value": 4,
                        "unit": "d",
                        "system": "http://unitsofmeasure.org"
                      },
                      "high": {
                        "value": 4,
                        "unit": "d",
                        "system": "http://unitsofmeasure.org"
                      }
                    }
                  }
                ],
                "targetId": "scheduledactivityinstance-11",
                "relationship": "after",
                "offsetDuration": {
                  "value": 12,
                  "unit": "w",
                  "system": "http://unitsofmeasure.org"
                }
              }
            ],
            "definitionCanonical": "http://d4k.dk/fhir/vulcan-soa/cdisc-pilot-lzzt/PlanDefinition/wk12"
          },
          {
            "id": "scheduledactivityinstance-18",
            "title": "Week 12 NPI",
            "relatedAction": [
              {
                "targetId": "scheduledactivityinstance-17",
                "relationship": "after",
                "offsetDuration": {
                  "value": 2,
                  "unit": "w",
                  "system": "http://unitsofmeasure.org"
                }
              }
            ],
            "definitionCanonical": "http://d4k.dk/fhir/vulcan-soa/cdisc-pilot-lzzt/PlanDefinition/wk12n"
          },
          {
            "id": "scheduledactivityinstance-19",
            "title": "Week 16",
            "relatedAction": [
              {
                "extension": [
                  {
                    "url": "http://hl7.org/fhir/uv/vulcan-schedule/StructureDefinition/AcceptableOffsetRangeSoa",
                    "valueRange": {
                      "low": {
                        "value": 4,
                        "unit": "d",
                        "system": "http://unitsofmeasure.org"
                      },
                      "high": {
                        "value": 4,
                        "unit": "d",
                        "system": "http://unitsofmeasure.org"
                      }
                    }
                  }
                ],
                "targetId": "scheduledactivityinstance-11",
                "relationship": "after",
                "offsetDuration": {
                  "value": 16,
                  "unit": "w",
                  "system": "http://unitsofmeasure.org"
                }
              }
            ],
            "definitionCanonical": "http://d4k.dk/fhir/vulcan-soa/cdisc-pilot-lzzt/PlanDefinition/wk16"
          },
          {
            "id": "scheduledactivityinstance-20",
            "title": "Week 16 NPI",
            "relatedAction": [
              {
                "targetId": "scheduledactivityinstance-19",
                "relationship": "after",
                "offsetDuration": {
                  "value": 2,
                  "unit": "w",
                  "system": "http://unitsofmeasure.org"
                }
              }
            ],
            "definitionCanonical": "http://d4k.dk/fhir/vulcan-soa/cdisc-pilot-lzzt/PlanDefinition/wk16n"
          },
          {
            "id": "scheduledactivityinstance-21",
            "title": "Week 20",
            "relatedAction": [
              {
                "extension": [
                  {
                    "url": "http://hl7.org/fhir/uv/vulcan-schedule/StructureDefinition/AcceptableOffsetRangeSoa",
                    "valueRange": {
                      "low": {
                        "value": 4,
                        "unit": "d",
                        "system": "http://unitsofmeasure.org"
                      },
                      "high": {
                        "value": 4,
                        "unit": "d",
                        "system": "http://unitsofmeasure.org"
                      }
                    }
                  }
                ],
                "targetId": "scheduledactivityinstance-11",
                "relationship": "after",
                "offsetDuration": {
                  "value": 20,
                  "unit": "w",
                  "system": "http://unitsofmeasure.org"
                }
              }
            ],
            "definitionCanonical": "http://d4k.dk/fhir/vulcan-soa/cdisc-pilot-lzzt/PlanDefinition/wk20"
          },
          {
            "id": "scheduledactivityinstance-22",
            "title": "Week 20 NPI",
            "relatedAction": [
              {
                "targetId": "scheduledactivityinstance-21",
                "relationship": "after",
                "offsetDuration": {
                  "value": 2,
                  "unit": "w",
                  "system": "http://unitsofmeasure.org"
                }
              }
            ],
            "definitionCanonical": "http://d4k.dk/fhir/vulcan-soa/cdisc-pilot-lzzt/PlanDefinition/wk20n"
          },
          {
            "id": "scheduledactivityinstance-23",
            "title": "Week 24",
            "relatedAction": [
              {
                "extension": [
                  {
                    "url": "http://hl7.org/fhir/uv/vulcan-schedule/StructureDefinition/AcceptableOffsetRangeSoa",
                    "valueRange": {
                      "low": {
                        "value": 4,
                        "unit": "d",
                        "system": "http://unitsofmeasure.org"
                      },
                      "high": {
                        "value": 4,
                        "unit": "d",
                        "system": "http://unitsofmeasure.org"
                      }
                    }
                  }
                ],
                "targetId": "scheduledactivityinstance-11",
                "relationship": "after",
                "offsetDuration": {
                  "value": 24,
                  "unit": "w",
                  "system": "http://unitsofmeasure.org"
                }
              }
            ],
            "definitionCanonical": "http://d4k.dk/fhir/vulcan-soa/cdisc-pilot-lzzt/PlanDefinition/wk24"
          },
          {
            "id": "scheduledactivityinstance-24",
            "title": "Week 26",
            "relatedAction": [
              {
                "extension": [
                  {
                    "url": "http://hl7.org/fhir/uv/vulcan-schedule/StructureDefinition/AcceptableOffsetRangeSoa",
                    "valueRange": {
                      "low": {
                        "value": 3,
                        "unit": "d",
                        "system": "http://unitsofmeasure.org"
                      },
                      "high": {
                        "value": 3,
                        "unit": "d",
                        "system": "http://unitsofmeasure.org"
                      }
                    }
                  }
                ],
                "targetId": "scheduledactivityinstance-11",
                "relationship": "after",
                "offsetDuration": {
                  "value": 26,
                  "unit": "w",
                  "system": "http://unitsofmeasure.org"
                }
              }
            ],
            "definitionCanonical": "http://d4k.dk/fhir/vulcan-soa/cdisc-pilot-lzzt/PlanDefinition/wk26"
          }
        ]
      },
      "request": {
        "method": "PUT",
        "url": "PlanDefinition"
      }
    },
    {
      "fullUrl": "urn:uuid:FAKE-UUID",
      "resource": {
        "resourceType": "PlanDefinition",
        "id": "scheduledactivityinstance-9",
        "url": "http://d4k.dk/fhir/vulcan-soa/cdisc-pilot-lzzt/PlanDefinition/screen1",
        "title": "Screen One",
        "type": {
          "coding": [
            {
              "system": "http://terminology.hl7.org/CodeSystem/plan-definition-type",
              "code": "clinical-protocol"
            }
          ]
        },
        "status": "active",
        "purpose": "-",
        "action": [
          {
            "id": "activity-1",
            "title": "Informed consent",
            "definitionCanonical": "http://d4k.dk/fhir/vulcan-soa/cdisc-pilot-lzzt/ActivityDefinition/informed-consent"
          },
          {
            "id": "activity-2",
            "title": "Inclusion and exclusion criteria",
            "definitionCanonical": "http://d4k.dk/fhir/vulcan-soa/cdisc-pilot-lzzt/ActivityDefinition/inclusion-exclusion-criteria"
          },
          {
            "id": "activity-3",
            "title": "Patient number assigned",
            "definitionCanonical": "http://d4k.dk/fhir/vulcan-soa/cdisc-pilot-lzzt/ActivityDefinition/patient-number-assigned"
          },
          {
            "id": "activity-4",
            "title": "Demographics",
            "definitionCanonical": "http://d4k.dk/fhir/vulcan-soa/cdisc-pilot-lzzt/ActivityDefinition/demographics"
          },
          {
            "id": "activity-5",
            "title": "Hachinski Ischemic Scale",
            "definitionCanonical": "http://d4k.dk/fhir/vulcan-soa/cdisc-pilot-lzzt/ActivityDefinition/hachinski"
          },
          {
            "id": "activity-6",
            "title": "MMSE",
            "definitionCanonical": "http://d4k.dk/fhir/vulcan-soa/cdisc-pilot-lzzt/ActivityDefinition/mmse"
          },
          {
            "id": "activity-7",
            "title": "Physical examination",
            "definitionCanonical": "http://d4k.dk/fhir/vulcan-soa/cdisc-pilot-lzzt/ActivityDefinition/physical-examination"
          },
          {
            "id": "activity-8",
            "title": "Medical history",
            "definitionCanonical": "http://d4k.dk/fhir/vulcan-soa/cdisc-pilot-lzzt/ActivityDefinition/medical-history"
          },
          {
            "id": "activity-9",
            "title": "Habits",
            "definitionCanonical": "http://d4k.dk/fhir/vulcan-soa/cdisc-pilot-lzzt/ActivityDefinition/habits"
          },
          {
            "id": "activity-10",
            "title": "Chest X-ray",
            "definitionCanonical": "http://d4k.dk/fhir/vulcan-soa/cdisc-pilot-lzzt/ActivityDefinition/chest-x-ray"
          },
          {
            "id": "activity-13",
            "title": "Vital Signs and Temperature",
            "definitionCanonical": "http://d4k.dk/fhir/vulcan-soa/cdisc-pilot-lzzt/ActivityDefinition/vital-signs-temperature"
          },
          {
            "id": "activity-16",
            "title": "ECG",
            "definitionCanonical": "http://d4k.dk/fhir/vulcan-soa/cdisc-pilot-lzzt/ActivityDefinition/ecg"
          },
          {
            "id": "activity-17",
            "title": "Placebo TTS test",
            "definitionCanonical": "http://d4k.dk/fhir/vulcan-soa/cdisc-pilot-lzzt/ActivityDefinition/placebo-tts-test"
          },
          {
            "id": "activity-18",
            "title": "CT scan",
            "definitionCanonical": "http://d4k.dk/fhir/vulcan-soa/cdisc-pilot-lzzt/ActivityDefinition/ct-scan"
          },
          {
            "id": "activity-19",
            "title": "Concomitant medications",
            "definitionCanonical": "http://d4k.dk/fhir/vulcan-soa/cdisc-pilot-lzzt/ActivityDefinition/concomitant-medications"
          },
          {
            "id": "activity-20",
            "title": "Hematology",
            "definitionCanonical": "http://d4k.dk/fhir/vulcan-soa/cdisc-pilot-lzzt/ActivityDefinition/hematology"
          },
          {
            "id": "activity-21",
            "title": "Chemistry",
            "definitionCanonical": "http://d4k.dk/fhir/vulcan-soa/cdisc-pilot-lzzt/ActivityDefinition/chemistry"
          },
          {
            "id": "activity-22",
            "title": "Uninalysis",
            "definitionCanonical": "http://d4k.dk/fhir/vulcan-soa/cdisc-pilot-lzzt/ActivityDefinition/uninalysis"
          },
          {
            "id": "activity-24",
            "title": "Hemoglobin A1C",
            "definitionCanonical": "http://d4k.dk/fhir/vulcan-soa/cdisc-pilot-lzzt/ActivityDefinition/hemoglobin-a1c"
          },
          {
            "id": "activity-27",
            "title": "ADAS-Cog",
            "definitionCanonical": "http://d4k.dk/fhir/vulcan-soa/cdisc-pilot-lzzt/ActivityDefinition/adas-cog"
          },
          {
            "id": "activity-28",
            "title": "CIBIC+",
            "definitionCanonical": "http://d4k.dk/fhir/vulcan-soa/cdisc-pilot-lzzt/ActivityDefinition/cibic"
          },
          {
            "id": "activity-29",
            "title": "DAD",
            "definitionCanonical": "http://d4k.dk/fhir/vulcan-soa/cdisc-pilot-lzzt/ActivityDefinition/dad"
          },
          {
            "id": "activity-30",
            "title": "NPI-X",
            "definitionCanonical": "http://d4k.dk/fhir/vulcan-soa/cdisc-pilot-lzzt/ActivityDefinition/npi-x"
          }
        ]
      },
      "request": {
        "method": "PUT",
        "url": "PlanDefinition"
      }
    },
    {
      "fullUrl": "urn:uuid:FAKE-UUID",
      "resource": {
        "resourceType": "PlanDefinition",
        "id": "scheduledactivityinstance-10",
        "url": "http://d4k.dk/fhir/vulcan-soa/cdisc-pilot-lzzt/PlanDefinition/screen2",
        "title": "Screen Two",
        "type": {
          "coding": [
            {
              "system": "http://terminology.hl7.org/CodeSystem/plan-definition-type",
              "code": "clinical-protocol"
            }
          ]
        },
        "status": "active",
        "purpose": "-",
        "action": [
          {
            "id": "activity-13",
            "title": "Vital Signs and Temperature",
            "definitionCanonical": "http://d4k.dk/fhir/vulcan-soa/cdisc-pilot-lzzt/ActivityDefinition/vital-signs-temperature"
          },
          {
            "id": "activity-14",
            "title": "Ambulatory ECG placed",
            "definitionCanonical": "http://d4k.dk/fhir/vulcan-soa/cdisc-pilot-lzzt/ActivityDefinition/ambulatory-ecg-placed"
          }
        ]
      },
      "request": {
        "method": "PUT",
        "url": "PlanDefinition"
      }
    },
    {
      "fullUrl": "urn:uuid:FAKE-UUID",
      "resource": {
        "resourceType": "PlanDefinition",
        "id": "scheduledactivityinstance-11",
        "url": "http://d4k.dk/fhir/vulcan-soa/cdisc-pilot-lzzt/PlanDefinition/dose",
        "title": "Dose",
        "type": {
          "coding": [
            {
              "system": "http://terminology.hl7.org/CodeSystem/plan-definition-type",
              "code": "clinical-protocol"
            }
          ]
        },
        "status": "active",
        "purpose": "-",
        "action": [
          {
            "id": "activity-12",
            "title": "Patient randomised",
            "definitionCanonical": "http://d4k.dk/fhir/vulcan-soa/cdisc-pilot-lzzt/ActivityDefinition/patient-randomised"
          },
          {
            "id": "activity-13",
            "title": "Vital Signs and Temperature",
            "definitionCanonical": "http://d4k.dk/fhir/vulcan-soa/cdisc-pilot-lzzt/ActivityDefinition/vital-signs-temperature"
          },
          {
            "id": "activity-15",
            "title": "Ambulatory ECG removed",
            "definitionCanonical": "http://d4k.dk/fhir/vulcan-soa/cdisc-pilot-lzzt/ActivityDefinition/ambulatory-ecg-removed"
          },
          {
            "id": "activity-19",
            "title": "Concomitant medications",
            "definitionCanonical": "http://d4k.dk/fhir/vulcan-soa/cdisc-pilot-lzzt/ActivityDefinition/concomitant-medications"
          },
          {
            "id": "activity-23",
            "title": "Plasma Specimen (Xanomeline)",
            "definitionCanonical": "http://d4k.dk/fhir/vulcan-soa/cdisc-pilot-lzzt/ActivityDefinition/plasma-specimen-xanomeline"
          },
          {
            "id": "activity-25",
            "title": "Study drug record , Medications dispensed, Medications returned",
            "definitionCanonical": "http://d4k.dk/fhir/vulcan-soa/cdisc-pilot-lzzt/ActivityDefinition/study-drug"
          },
          {
            "id": "activity-27",
            "title": "ADAS-Cog",
            "definitionCanonical": "http://d4k.dk/fhir/vulcan-soa/cdisc-pilot-lzzt/ActivityDefinition/adas-cog"
          },
          {
            "id": "activity-28",
            "title": "CIBIC+",
            "definitionCanonical": "http://d4k.dk/fhir/vulcan-soa/cdisc-pilot-lzzt/ActivityDefinition/cibic"
          },
          {
            "id": "activity-29",
            "title": "DAD",
            "definitionCanonical": "http://d4k.dk/fhir/vulcan-soa/cdisc-pilot-lzzt/ActivityDefinition/dad"
          },
          {
            "id": "activity-30",
            "title": "NPI-X",
            "definitionCanonical": "http://d4k.dk/fhir/vulcan-soa/cdisc-pilot-lzzt/ActivityDefinition/npi-x"
          }
        ]
      },
      "request": {
        "method": "PUT",
        "url": "PlanDefinition"
      }
    },
    {
      "fullUrl": "urn:uuid:FAKE-UUID",
      "resource": {
        "resourceType": "PlanDefinition",
        "id": "scheduledactivityinstance-12",
        "url": "http://d4k.dk/fhir/vulcan-soa/cdisc-pilot-lzzt/PlanDefinition/wk2",
        "title": "Week 2",
        "type": {
          "coding": [
            {
              "system": "http://terminology.hl7.org/CodeSystem/plan-definition-type",
              "code": "clinical-protocol"
            }
          ]
        },
        "status": "active",
        "purpose": "-",
        "action": [
          {
            "id": "activity-11",
            "title": "Apo E genotyping",
            "definitionCanonical": "http://d4k.dk/fhir/vulcan-soa/cdisc-pilot-lzzt/ActivityDefinition/apo-e-genotyping"
          },
          {
            "id": "activity-13",
            "title": "Vital Signs and Temperature",
            "definitionCanonical": "http://d4k.dk/fhir/vulcan-soa/cdisc-pilot-lzzt/ActivityDefinition/vital-signs-temperature"
          },
          {
            "id": "activity-16",
            "title": "ECG",
            "definitionCanonical": "http://d4k.dk/fhir/vulcan-soa/cdisc-pilot-lzzt/ActivityDefinition/ecg"
          },
          {
            "id": "activity-19",
            "title": "Concomitant medications",
            "definitionCanonical": "http://d4k.dk/fhir/vulcan-soa/cdisc-pilot-lzzt/ActivityDefinition/concomitant-medications"
          },
          {
            "id": "activity-20",
            "title": "Hematology",
            "definitionCanonical": "http://d4k.dk/fhir/vulcan-soa/cdisc-pilot-lzzt/ActivityDefinition/hematology"
          },
          {
            "id": "activity-21",
            "title": "Chemistry",
            "definitionCanonical": "http://d4k.dk/fhir/vulcan-soa/cdisc-pilot-lzzt/ActivityDefinition/chemistry"
          },
          {
            "id": "activity-22",
            "title": "Uninalysis",
            "definitionCanonical": "http://d4k.dk/fhir/vulcan-soa/cdisc-pilot-lzzt/ActivityDefinition/uninalysis"
          },
          {
            "id": "activity-23",
            "title": "Plasma Specimen (Xanomeline)",
            "definitionCanonical": "http://d4k.dk/fhir/vulcan-soa/cdisc-pilot-lzzt/ActivityDefinition/plasma-specimen-xanomeline"
          },
          {
            "id": "activity-25",
            "title": "Study drug record , Medications dispensed, Medications returned",
            "definitionCanonical": "http://d4k.dk/fhir/vulcan-soa/cdisc-pilot-lzzt/ActivityDefinition/study-drug"
          },
          {
            "id": "activity-30",
            "title": "NPI-X",
            "definitionCanonical": "http://d4k.dk/fhir/vulcan-soa/cdisc-pilot-lzzt/ActivityDefinition/npi-x"
          }
        ]
      },
      "request": {
        "method": "PUT",
        "url": "PlanDefinition"
      }
    },
    {
      "fullUrl": "urn:uuid:FAKE-UUID",
      "resource": {
        "resourceType": "PlanDefinition",
        "id": "scheduledactivityinstance-13",
        "url": "http://d4k.dk/fhir/vulcan-soa/cdisc-pilot-lzzt/PlanDefinition/wk4",
        "title": "Week 4",
        "type": {
          "coding": [
            {
              "system": "http://terminology.hl7.org/CodeSystem/plan-definition-type",
              "code": "clinical-protocol"
            }
          ]
        },
        "status": "active",
        "purpose": "-",
        "action": [
          {
            "id": "activity-13",
            "title": "Vital Signs and Temperature",
            "definitionCanonical": "http://d4k.dk/fhir/vulcan-soa/cdisc-pilot-lzzt/ActivityDefinition/vital-signs-temperature"
          },
          {
            "id": "activity-16",
            "title": "ECG",
            "definitionCanonical": "http://d4k.dk/fhir/vulcan-soa/cdisc-pilot-lzzt/ActivityDefinition/ecg"
          },
          {
            "id": "activity-19",
            "title": "Concomitant medications",
            "definitionCanonical": "http://d4k.dk/fhir/vulcan-soa/cdisc-pilot-lzzt/ActivityDefinition/concomitant-medications"
          },
          {
            "id": "activity-20",
            "title": "Hematology",
            "definitionCanonical": "http://d4k.dk/fhir/vulcan-soa/cdisc-pilot-lzzt/ActivityDefinition/hematology"
          },
          {
            "id": "activity-21",
            "title": "Chemistry",
            "definitionCanonical": "http://d4k.dk/fhir/vulcan-soa/cdisc-pilot-lzzt/ActivityDefinition/chemistry"
          },
          {
            "id": "activity-23",
            "title": "Plasma Specimen (Xanomeline)",
            "definitionCanonical": "http://d4k.dk/fhir/vulcan-soa/cdisc-pilot-lzzt/ActivityDefinition/plasma-specimen-xanomeline"
          },
          {
            "id": "activity-25",
            "title": "Study drug record , Medications dispensed, Medications returned",
            "definitionCanonical": "http://d4k.dk/fhir/vulcan-soa/cdisc-pilot-lzzt/ActivityDefinition/study-drug"
          },
          {
            "id": "activity-30",
            "title": "NPI-X",
            "definitionCanonical": "http://d4k.dk/fhir/vulcan-soa/cdisc-pilot-lzzt/ActivityDefinition/npi-x"
          }
        ]
      },
      "request": {
        "method": "PUT",
        "url": "PlanDefinition"
      }
    },
    {
      "fullUrl": "urn:uuid:FAKE-UUID",
      "resource": {
        "resourceType": "PlanDefinition",
        "id": "scheduledactivityinstance-14",
        "url": "http://d4k.dk/fhir/vulcan-soa/cdisc-pilot-lzzt/PlanDefinition/wk6",
        "title": "Week 6",
        "type": {
          "coding": [
            {
              "system": "http://terminology.hl7.org/CodeSystem/plan-definition-type",
              "code": "clinical-protocol"
            }
          ]
        },
        "status": "active",
        "purpose": "-",
        "action": [
          {
            "id": "activity-13",
            "title": "Vital Signs and Temperature",
            "definitionCanonical": "http://d4k.dk/fhir/vulcan-soa/cdisc-pilot-lzzt/ActivityDefinition/vital-signs-temperature"
          },
          {
            "id": "activity-16",
            "title": "ECG",
            "definitionCanonical": "http://d4k.dk/fhir/vulcan-soa/cdisc-pilot-lzzt/ActivityDefinition/ecg"
          },
          {
            "id": "activity-19",
            "title": "Concomitant medications",
            "definitionCanonical": "http://d4k.dk/fhir/vulcan-soa/cdisc-pilot-lzzt/ActivityDefinition/concomitant-medications"
          },
          {
            "id": "activity-20",
            "title": "Hematology",
            "definitionCanonical": "http://d4k.dk/fhir/vulcan-soa/cdisc-pilot-lzzt/ActivityDefinition/hematology"
          },
          {
            "id": "activity-21",
            "title": "Chemistry",
            "definitionCanonical": "http://d4k.dk/fhir/vulcan-soa/cdisc-pilot-lzzt/ActivityDefinition/chemistry"
          },
          {
            "id": "activity-23",
            "title": "Plasma Specimen (Xanomeline)",
            "definitionCanonical": "http://d4k.dk/fhir/vulcan-soa/cdisc-pilot-lzzt/ActivityDefinition/plasma-specimen-xanomeline"
          },
          {
            "id": "activity-25",
            "title": "Study drug record , Medications dispensed, Medications returned",
            "definitionCanonical": "http://d4k.dk/fhir/vulcan-soa/cdisc-pilot-lzzt/ActivityDefinition/study-drug"
          },
          {
            "id": "activity-30",
            "title": "NPI-X",
            "definitionCanonical": "http://d4k.dk/fhir/vulcan-soa/cdisc-pilot-lzzt/ActivityDefinition/npi-x"
          }
        ]
      },
      "request": {
        "method": "PUT",
        "url": "PlanDefinition"
      }
    },
    {
      "fullUrl": "urn:uuid:FAKE-UUID",
      "resource": {
        "resourceType": "PlanDefinition",
        "id": "scheduledactivityinstance-15",
        "url": "http://d4k.dk/fhir/vulcan-soa/cdisc-pilot-lzzt/PlanDefinition/wk8",
        "title": "Week 8",
        "type": {
          "coding": [
            {
              "system": "http://terminology.hl7.org/CodeSystem/plan-definition-type",
              "code": "clinical-protocol"
            }
          ]
        },
        "status": "active",
        "purpose": "-",
        "action": [
          {
            "id": "activity-13",
            "title": "Vital Signs and Temperature",
            "definitionCanonical": "http://d4k.dk/fhir/vulcan-soa/cdisc-pilot-lzzt/ActivityDefinition/vital-signs-temperature"
          },
          {
            "id": "activity-16",
            "title": "ECG",
            "definitionCanonical": "http://d4k.dk/fhir/vulcan-soa/cdisc-pilot-lzzt/ActivityDefinition/ecg"
          },
          {
            "id": "activity-19",
            "title": "Concomitant medications",
            "definitionCanonical": "http://d4k.dk/fhir/vulcan-soa/cdisc-pilot-lzzt/ActivityDefinition/concomitant-medications"
          },
          {
            "id": "activity-20",
            "title": "Hematology",
            "definitionCanonical": "http://d4k.dk/fhir/vulcan-soa/cdisc-pilot-lzzt/ActivityDefinition/hematology"
          },
          {
            "id": "activity-21",
            "title": "Chemistry",
            "definitionCanonical": "http://d4k.dk/fhir/vulcan-soa/cdisc-pilot-lzzt/ActivityDefinition/chemistry"
          },
          {
            "id": "activity-25",
            "title": "Study drug record , Medications dispensed, Medications returned",
            "definitionCanonical": "http://d4k.dk/fhir/vulcan-soa/cdisc-pilot-lzzt/ActivityDefinition/study-drug"
          },
          {
            "id": "activity-27",
            "title": "ADAS-Cog",
            "definitionCanonical": "http://d4k.dk/fhir/vulcan-soa/cdisc-pilot-lzzt/ActivityDefinition/adas-cog"
          },
          {
            "id": "activity-28",
            "title": "CIBIC+",
            "definitionCanonical": "http://d4k.dk/fhir/vulcan-soa/cdisc-pilot-lzzt/ActivityDefinition/cibic"
          },
          {
            "id": "activity-29",
            "title": "DAD",
            "definitionCanonical": "http://d4k.dk/fhir/vulcan-soa/cdisc-pilot-lzzt/ActivityDefinition/dad"
          },
          {
            "id": "activity-30",
            "title": "NPI-X",
            "definitionCanonical": "http://d4k.dk/fhir/vulcan-soa/cdisc-pilot-lzzt/ActivityDefinition/npi-x"
          }
        ]
      },
      "request": {
        "method": "PUT",
        "url": "PlanDefinition"
      }
    },
    {
      "fullUrl": "urn:uuid:FAKE-UUID",
      "resource": {
        "resourceType": "PlanDefinition",
        "id": "scheduledactivityinstance-16",
        "url": "http://d4k.dk/fhir/vulcan-soa/cdisc-pilot-lzzt/PlanDefinition/wk8n",
        "title": "Week NPI",
        "type": {
          "coding": [
            {
              "system": "http://terminology.hl7.org/CodeSystem/plan-definition-type",
              "code": "clinical-protocol"
            }
          ]
        },
        "status": "active",
        "purpose": "-",
        "action": [
          {
            "id": "activity-30",
            "title": "NPI-X",
            "definitionCanonical": "http://d4k.dk/fhir/vulcan-soa/cdisc-pilot-lzzt/ActivityDefinition/npi-x"
          }
        ]
      },
      "request": {
        "method": "PUT",
        "url": "PlanDefinition"
      }
    },
    {
      "fullUrl": "urn:uuid:FAKE-UUID",
      "resource": {
        "resourceType": "PlanDefinition",
        "id": "scheduledactivityinstance-17",
        "url": "http://d4k.dk/fhir/vulcan-soa/cdisc-pilot-lzzt/PlanDefinition/wk12",
        "title": "Week 12",
        "type": {
          "coding": [
            {
              "system": "http://terminology.hl7.org/CodeSystem/plan-definition-type",
              "code": "clinical-protocol"
            }
          ]
        },
        "status": "active",
        "purpose": "-",
        "action": [
          {
            "id": "activity-13",
            "title": "Vital Signs and Temperature",
            "definitionCanonical": "http://d4k.dk/fhir/vulcan-soa/cdisc-pilot-lzzt/ActivityDefinition/vital-signs-temperature"
          },
          {
            "id": "activity-16",
            "title": "ECG",
            "definitionCanonical": "http://d4k.dk/fhir/vulcan-soa/cdisc-pilot-lzzt/ActivityDefinition/ecg"
          },
          {
            "id": "activity-19",
            "title": "Concomitant medications",
            "definitionCanonical": "http://d4k.dk/fhir/vulcan-soa/cdisc-pilot-lzzt/ActivityDefinition/concomitant-medications"
          },
          {
            "id": "activity-20",
            "title": "Hematology",
            "definitionCanonical": "http://d4k.dk/fhir/vulcan-soa/cdisc-pilot-lzzt/ActivityDefinition/hematology"
          },
          {
            "id": "activity-21",
            "title": "Chemistry",
            "definitionCanonical": "http://d4k.dk/fhir/vulcan-soa/cdisc-pilot-lzzt/ActivityDefinition/chemistry"
          },
          {
            "id": "activity-22",
            "title": "Uninalysis",
            "definitionCanonical": "http://d4k.dk/fhir/vulcan-soa/cdisc-pilot-lzzt/ActivityDefinition/uninalysis"
          },
          {
            "id": "activity-23",
            "title": "Plasma Specimen (Xanomeline)",
            "definitionCanonical": "http://d4k.dk/fhir/vulcan-soa/cdisc-pilot-lzzt/ActivityDefinition/plasma-specimen-xanomeline"
          },
          {
            "id": "activity-25",
            "title": "Study drug record , Medications dispensed, Medications returned",
            "definitionCanonical": "http://d4k.dk/fhir/vulcan-soa/cdisc-pilot-lzzt/ActivityDefinition/study-drug"
          },
          {
            "id": "activity-30",
            "title": "NPI-X",
            "definitionCanonical": "http://d4k.dk/fhir/vulcan-soa/cdisc-pilot-lzzt/ActivityDefinition/npi-x"
          }
        ]
      },
      "request": {
        "method": "PUT",
        "url": "PlanDefinition"
      }
    },
    {
      "fullUrl": "urn:uuid:FAKE-UUID",
      "resource": {
        "resourceType": "PlanDefinition",
        "id": "scheduledactivityinstance-18",
        "url": "http://d4k.dk/fhir/vulcan-soa/cdisc-pilot-lzzt/PlanDefinition/wk12n",
        "title": "Week 12 NPI",
        "type": {
          "coding": [
            {
              "system": "http://terminology.hl7.org/CodeSystem/plan-definition-type",
              "code": "clinical-protocol"
            }
          ]
        },
        "status": "active",
        "purpose": "-",
        "action": [
          {
            "id": "activity-30",
            "title": "NPI-X",
            "definitionCanonical": "http://d4k.dk/fhir/vulcan-soa/cdisc-pilot-lzzt/ActivityDefinition/npi-x"
          }
        ]
      },
      "request": {
        "method": "PUT",
        "url": "PlanDefinition"
      }
    },
    {
      "fullUrl": "urn:uuid:FAKE-UUID",
      "resource": {
        "resourceType": "PlanDefinition",
        "id": "scheduledactivityinstance-19",
        "url": "http://d4k.dk/fhir/vulcan-soa/cdisc-pilot-lzzt/PlanDefinition/wk16",
        "title": "Week 16",
        "type": {
          "coding": [
            {
              "system": "http://terminology.hl7.org/CodeSystem/plan-definition-type",
              "code": "clinical-protocol"
            }
          ]
        },
        "status": "active",
        "purpose": "-",
        "action": [
          {
            "id": "activity-13",
            "title": "Vital Signs and Temperature",
            "definitionCanonical": "http://d4k.dk/fhir/vulcan-soa/cdisc-pilot-lzzt/ActivityDefinition/vital-signs-temperature"
          },
          {
            "id": "activity-16",
            "title": "ECG",
            "definitionCanonical": "http://d4k.dk/fhir/vulcan-soa/cdisc-pilot-lzzt/ActivityDefinition/ecg"
          },
          {
            "id": "activity-19",
            "title": "Concomitant medications",
            "definitionCanonical": "http://d4k.dk/fhir/vulcan-soa/cdisc-pilot-lzzt/ActivityDefinition/concomitant-medications"
          },
          {
            "id": "activity-20",
            "title": "Hematology",
            "definitionCanonical": "http://d4k.dk/fhir/vulcan-soa/cdisc-pilot-lzzt/ActivityDefinition/hematology"
          },
          {
            "id": "activity-21",
            "title": "Chemistry",
            "definitionCanonical": "http://d4k.dk/fhir/vulcan-soa/cdisc-pilot-lzzt/ActivityDefinition/chemistry"
          },
          {
            "id": "activity-25",
            "title": "Study drug record , Medications dispensed, Medications returned",
            "definitionCanonical": "http://d4k.dk/fhir/vulcan-soa/cdisc-pilot-lzzt/ActivityDefinition/study-drug"
          },
          {
            "id": "activity-27",
            "title": "ADAS-Cog",
            "definitionCanonical": "http://d4k.dk/fhir/vulcan-soa/cdisc-pilot-lzzt/ActivityDefinition/adas-cog"
          },
          {
            "id": "activity-28",
            "title": "CIBIC+",
            "definitionCanonical": "http://d4k.dk/fhir/vulcan-soa/cdisc-pilot-lzzt/ActivityDefinition/cibic"
          },
          {
            "id": "activity-29",
            "title": "DAD",
            "definitionCanonical": "http://d4k.dk/fhir/vulcan-soa/cdisc-pilot-lzzt/ActivityDefinition/dad"
          },
          {
            "id": "activity-30",
            "title": "NPI-X",
            "definitionCanonical": "http://d4k.dk/fhir/vulcan-soa/cdisc-pilot-lzzt/ActivityDefinition/npi-x"
          }
        ]
      },
      "request": {
        "method": "PUT",
        "url": "PlanDefinition"
      }
    },
    {
      "fullUrl": "urn:uuid:FAKE-UUID",
      "resource": {
        "resourceType": "PlanDefinition",
        "id": "scheduledactivityinstance-20",
        "url": "http://d4k.dk/fhir/vulcan-soa/cdisc-pilot-lzzt/PlanDefinition/wk16n",
        "title": "Week 16 NPI",
        "type": {
          "coding": [
            {
              "system": "http://terminology.hl7.org/CodeSystem/plan-definition-type",
              "code": "clinical-protocol"
            }
          ]
        },
        "status": "active",
        "purpose": "-",
        "action": [
          {
            "id": "activity-30",
            "title": "NPI-X",
            "definitionCanonical": "http://d4k.dk/fhir/vulcan-soa/cdisc-pilot-lzzt/ActivityDefinition/npi-x"
          }
        ]
      },
      "request": {
        "method": "PUT",
        "url": "PlanDefinition"
      }
    },
    {
      "fullUrl": "urn:uuid:FAKE-UUID",
      "resource": {
        "resourceType": "PlanDefinition",
        "id": "scheduledactivityinstance-21",
        "url": "http://d4k.dk/fhir/vulcan-soa/cdisc-pilot-lzzt/PlanDefinition/wk20",
        "title": "Week 20",
        "type": {
          "coding": [
            {
              "system": "http://terminology.hl7.org/CodeSystem/plan-definition-type",
              "code": "clinical-protocol"
            }
          ]
        },
        "status": "active",
        "purpose": "-",
        "action": [
          {
            "id": "activity-13",
            "title": "Vital Signs and Temperature",
            "definitionCanonical": "http://d4k.dk/fhir/vulcan-soa/cdisc-pilot-lzzt/ActivityDefinition/vital-signs-temperature"
          },
          {
            "id": "activity-16",
            "title": "ECG",
            "definitionCanonical": "http://d4k.dk/fhir/vulcan-soa/cdisc-pilot-lzzt/ActivityDefinition/ecg"
          },
          {
            "id": "activity-19",
            "title": "Concomitant medications",
            "definitionCanonical": "http://d4k.dk/fhir/vulcan-soa/cdisc-pilot-lzzt/ActivityDefinition/concomitant-medications"
          },
          {
            "id": "activity-20",
            "title": "Hematology",
            "definitionCanonical": "http://d4k.dk/fhir/vulcan-soa/cdisc-pilot-lzzt/ActivityDefinition/hematology"
          },
          {
            "id": "activity-21",
            "title": "Chemistry",
            "definitionCanonical": "http://d4k.dk/fhir/vulcan-soa/cdisc-pilot-lzzt/ActivityDefinition/chemistry"
          },
          {
            "id": "activity-23",
            "title": "Plasma Specimen (Xanomeline)",
            "definitionCanonical": "http://d4k.dk/fhir/vulcan-soa/cdisc-pilot-lzzt/ActivityDefinition/plasma-specimen-xanomeline"
          },
          {
            "id": "activity-25",
            "title": "Study drug record , Medications dispensed, Medications returned",
            "definitionCanonical": "http://d4k.dk/fhir/vulcan-soa/cdisc-pilot-lzzt/ActivityDefinition/study-drug"
          },
          {
            "id": "activity-30",
            "title": "NPI-X",
            "definitionCanonical": "http://d4k.dk/fhir/vulcan-soa/cdisc-pilot-lzzt/ActivityDefinition/npi-x"
          }
        ]
      },
      "request": {
        "method": "PUT",
        "url": "PlanDefinition"
      }
    },
    {
      "fullUrl": "urn:uuid:FAKE-UUID",
      "resource": {
        "resourceType": "PlanDefinition",
        "id": "scheduledactivityinstance-22",
        "url": "http://d4k.dk/fhir/vulcan-soa/cdisc-pilot-lzzt/PlanDefinition/wk20n",
        "title": "Week 20 NPI",
        "type": {
          "coding": [
            {
              "system": "http://terminology.hl7.org/CodeSystem/plan-definition-type",
              "code": "clinical-protocol"
            }
          ]
        },
        "status": "active",
        "purpose": "-",
        "action": [
          {
            "id": "activity-30",
            "title": "NPI-X",
            "definitionCanonical": "http://d4k.dk/fhir/vulcan-soa/cdisc-pilot-lzzt/ActivityDefinition/npi-x"
          }
        ]
      },
      "request": {
        "method": "PUT",
        "url": "PlanDefinition"
      }
    },
    {
      "fullUrl": "urn:uuid:FAKE-UUID",
      "resource": {
        "resourceType": "PlanDefinition",
        "id": "scheduledactivityinstance-23",
        "url": "http://d4k.dk/fhir/vulcan-soa/cdisc-pilot-lzzt/PlanDefinition/wk24",
        "title": "Week 24",
        "type": {
          "coding": [
            {
              "system": "http://terminology.hl7.org/CodeSystem/plan-definition-type",
              "code": "clinical-protocol"
            }
          ]
        },
        "status": "active",
        "purpose": "-",
        "action": [
          {
            "id": "activity-13",
            "title": "Vital Signs and Temperature",
            "definitionCanonical": "http://d4k.dk/fhir/vulcan-soa/cdisc-pilot-lzzt/ActivityDefinition/vital-signs-temperature"
          },
          {
            "id": "activity-16",
            "title": "ECG",
            "definitionCanonical": "http://d4k.dk/fhir/vulcan-soa/cdisc-pilot-lzzt/ActivityDefinition/ecg"
          },
          {
            "id": "activity-19",
            "title": "Concomitant medications",
            "definitionCanonical": "http://d4k.dk/fhir/vulcan-soa/cdisc-pilot-lzzt/ActivityDefinition/concomitant-medications"
          },
          {
            "id": "activity-20",
            "title": "Hematology",
            "definitionCanonical": "http://d4k.dk/fhir/vulcan-soa/cdisc-pilot-lzzt/ActivityDefinition/hematology"
          },
          {
            "id": "activity-21",
            "title": "Chemistry",
            "definitionCanonical": "http://d4k.dk/fhir/vulcan-soa/cdisc-pilot-lzzt/ActivityDefinition/chemistry"
          },
          {
            "id": "activity-22",
            "title": "Uninalysis",
            "definitionCanonical": "http://d4k.dk/fhir/vulcan-soa/cdisc-pilot-lzzt/ActivityDefinition/uninalysis"
          },
          {
            "id": "activity-25",
            "title": "Study drug record , Medications dispensed, Medications returned",
            "definitionCanonical": "http://d4k.dk/fhir/vulcan-soa/cdisc-pilot-lzzt/ActivityDefinition/study-drug"
          },
          {
            "id": "activity-27",
            "title": "ADAS-Cog",
            "definitionCanonical": "http://d4k.dk/fhir/vulcan-soa/cdisc-pilot-lzzt/ActivityDefinition/adas-cog"
          },
          {
            "id": "activity-28",
            "title": "CIBIC+",
            "definitionCanonical": "http://d4k.dk/fhir/vulcan-soa/cdisc-pilot-lzzt/ActivityDefinition/cibic"
          },
          {
            "id": "activity-29",
            "title": "DAD",
            "definitionCanonical": "http://d4k.dk/fhir/vulcan-soa/cdisc-pilot-lzzt/ActivityDefinition/dad"
          },
          {
            "id": "activity-30",
            "title": "NPI-X",
            "definitionCanonical": "http://d4k.dk/fhir/vulcan-soa/cdisc-pilot-lzzt/ActivityDefinition/npi-x"
          }
        ]
      },
      "request": {
        "method": "PUT",
        "url": "PlanDefinition"
      }
    },
    {
      "fullUrl": "urn:uuid:FAKE-UUID",
      "resource": {
        "resourceType": "PlanDefinition",
        "id": "scheduledactivityinstance-24",
        "url": "http://d4k.dk/fhir/vulcan-soa/cdisc-pilot-lzzt/PlanDefinition/wk26",
        "title": "Week 26",
        "type": {
          "coding": [
            {
              "system": "http://terminology.hl7.org/CodeSystem/plan-definition-type",
              "code": "clinical-protocol"
            }
          ]
        },
        "status": "active",
        "purpose": "-",
        "action": [
          {
            "id": "activity-7",
            "title": "Physical examination",
            "definitionCanonical": "http://d4k.dk/fhir/vulcan-soa/cdisc-pilot-lzzt/ActivityDefinition/physical-examination"
          },
          {
            "id": "activity-13",
            "title": "Vital Signs and Temperature",
            "definitionCanonical": "http://d4k.dk/fhir/vulcan-soa/cdisc-pilot-lzzt/ActivityDefinition/vital-signs-temperature"
          },
          {
            "id": "activity-16",
            "title": "ECG",
            "definitionCanonical": "http://d4k.dk/fhir/vulcan-soa/cdisc-pilot-lzzt/ActivityDefinition/ecg"
          },
          {
            "id": "activity-19",
            "title": "Concomitant medications",
            "definitionCanonical": "http://d4k.dk/fhir/vulcan-soa/cdisc-pilot-lzzt/ActivityDefinition/concomitant-medications"
          },
          {
            "id": "activity-20",
            "title": "Hematology",
            "definitionCanonical": "http://d4k.dk/fhir/vulcan-soa/cdisc-pilot-lzzt/ActivityDefinition/hematology"
          },
          {
            "id": "activity-21",
            "title": "Chemistry",
            "definitionCanonical": "http://d4k.dk/fhir/vulcan-soa/cdisc-pilot-lzzt/ActivityDefinition/chemistry"
          },
          {
            "id": "activity-25",
            "title": "Study drug record , Medications dispensed, Medications returned",
            "definitionCanonical": "http://d4k.dk/fhir/vulcan-soa/cdisc-pilot-lzzt/ActivityDefinition/study-drug"
          },
          {
            "id": "activity-26",
            "title": "TTS Acceptability Survey",
            "definitionCanonical": "http://d4k.dk/fhir/vulcan-soa/cdisc-pilot-lzzt/ActivityDefinition/tts-acceptability-survey"
          },
          {
            "id": "activity-30",
            "title": "NPI-X",
            "definitionCanonical": "http://d4k.dk/fhir/vulcan-soa/cdisc-pilot-lzzt/ActivityDefinition/npi-x"
          }
        ]
      },
      "request": {
        "method": "PUT",
        "url": "PlanDefinition"
      }
    },
    {
      "fullUrl": "urn:uuid:FAKE-UUID",
      "resource": {
        "resourceType": "ActivityDefinition",
        "id": "activity-1",
        "url": "http://d4k.dk/fhir/vulcan-soa/cdisc-pilot-lzzt/ActivityDefinition/informed-consent",
        "name": "Informed consent",
        "title": "Informed consent",
        "status": "active",
        "description": ""
      },
      "request": {
        "method": "PUT",
        "url": "ActivityDefinition"
      }
    },
    {
      "fullUrl": "urn:uuid:FAKE-UUID",
      "resource": {
        "resourceType": "ActivityDefinition",
        "id": "activity-2",
        "url": "http://d4k.dk/fhir/vulcan-soa/cdisc-pilot-lzzt/ActivityDefinition/inclusion-exclusion-criteria",
        "name": "Inclusion/exclusion criteria",
        "title": "Inclusion and exclusion criteria",
        "status": "active",
        "description": ""
      },
      "request": {
        "method": "PUT",
        "url": "ActivityDefinition"
      }
    },
    {
      "fullUrl": "urn:uuid:FAKE-UUID",
      "resource": {
        "resourceType": "ActivityDefinition",
        "id": "activity-3",
        "url": "http://d4k.dk/fhir/vulcan-soa/cdisc-pilot-lzzt/ActivityDefinition/patient-number-assigned",
        "name": "Patient number assigned",
        "title": "Patient number assigned",
        "status": "active",
        "description": ""
      },
      "request": {
        "method": "PUT",
        "url": "ActivityDefinition"
      }
    },
    {
      "fullUrl": "urn:uuid:FAKE-UUID",
      "resource": {
        "resourceType": "ActivityDefinition",
        "id": "activity-4",
        "url": "http://d4k.dk/fhir/vulcan-soa/cdisc-pilot-lzzt/ActivityDefinition/demographics",
        "name": "Demographics",
        "title": "Demographics",
        "status": "active",
        "description": ""
      },
      "request": {
        "method": "PUT",
        "url": "ActivityDefinition"
      }
    },
    {
      "fullUrl": "urn:uuid:FAKE-UUID",
      "resource": {
        "resourceType": "ActivityDefinition",
        "id": "activity-5",
        "url": "http://d4k.dk/fhir/vulcan-soa/cdisc-pilot-lzzt/ActivityDefinition/hachinski",
        "name": "Hachinski",
        "title": "Hachinski Ischemic Scale",
        "status": "active",
        "description": ""
      },
      "request": {
        "method": "PUT",
        "url": "ActivityDefinition"
      }
    },
    {
      "fullUrl": "urn:uuid:FAKE-UUID",
      "resource": {
        "resourceType": "ActivityDefinition",
        "id": "activity-6",
        "url": "http://d4k.dk/fhir/vulcan-soa/cdisc-pilot-lzzt/ActivityDefinition/mmse",
        "name": "MMSE",
        "title": "MMSE",
        "status": "active",
        "description": ""
      },
      "request": {
        "method": "PUT",
        "url": "ActivityDefinition"
      }
    },
    {
      "fullUrl": "urn:uuid:FAKE-UUID",
      "resource": {
        "resourceType": "ActivityDefinition",
        "id": "activity-7",
        "url": "http://d4k.dk/fhir/vulcan-soa/cdisc-pilot-lzzt/ActivityDefinition/physical-examination",
        "name": "Physical examination",
        "title": "Physical examination",
        "status": "active",
        "description": ""
      },
      "request": {
        "method": "PUT",
        "url": "ActivityDefinition"
      }
    },
    {
      "fullUrl": "urn:uuid:FAKE-UUID",
      "resource": {
        "resourceType": "ActivityDefinition",
        "id": "activity-8",
        "url": "http://d4k.dk/fhir/vulcan-soa/cdisc-pilot-lzzt/ActivityDefinition/medical-history",
        "name": "Medical history",
        "title": "Medical history",
        "status": "active",
        "description": ""
      },
      "request": {
        "method": "PUT",
        "url": "ActivityDefinition"
      }
    },
    {
      "fullUrl": "urn:uuid:FAKE-UUID",
      "resource": {
        "resourceType": "ActivityDefinition",
        "id": "activity-9",
        "url": "http://d4k.dk/fhir/vulcan-soa/cdisc-pilot-lzzt/ActivityDefinition/habits",
        "name": "Habits",
        "title": "Habits",
        "status": "active",
        "description": ""
      },
      "request": {
        "method": "PUT",
        "url": "ActivityDefinition"
      }
    },
    {
      "fullUrl": "urn:uuid:FAKE-UUID",
      "resource": {
        "resourceType": "ActivityDefinition",
        "id": "activity-10",
        "url": "http://d4k.dk/fhir/vulcan-soa/cdisc-pilot-lzzt/ActivityDefinition/chest-x-ray",
        "name": "Chest X-ray",
        "title": "Chest X-ray",
        "status": "active",
        "description": ""
      },
      "request": {
        "method": "PUT",
        "url": "ActivityDefinition"
      }
    },
    {
      "fullUrl": "urn:uuid:FAKE-UUID",
      "resource": {
        "resourceType": "ActivityDefinition",
        "id": "activity-11",
        "url": "http://d4k.dk/fhir/vulcan-soa/cdisc-pilot-lzzt/ActivityDefinition/apo-e-genotyping",
        "name": "Apo E genotyping",
        "title": "Apo E genotyping",
        "status": "active",
        "description": ""
      },
      "request": {
        "method": "PUT",
        "url": "ActivityDefinition"
      }
    },
    {
      "fullUrl": "urn:uuid:FAKE-UUID",
      "resource": {
        "resourceType": "ActivityDefinition",
        "id": "activity-12",
        "url": "http://d4k.dk/fhir/vulcan-soa/cdisc-pilot-lzzt/ActivityDefinition/patient-randomised",
        "name": "Patient randomised",
        "title": "Patient randomised",
        "status": "active",
        "description": ""
      },
      "request": {
        "method": "PUT",
        "url": "ActivityDefinition"
      }
    },
    {
      "fullUrl": "urn:uuid:FAKE-UUID",
      "resource": {
        "resourceType": "ActivityDefinition",
        "id": "activity-13",
        "url": "http://d4k.dk/fhir/vulcan-soa/cdisc-pilot-lzzt/ActivityDefinition/vital-signs-temperature",
        "name": "Vital signs / Temperature",
        "title": "Vital Signs and Temperature",
        "status": "active",
        "description": ""
      },
      "request": {
        "method": "PUT",
        "url": "ActivityDefinition"
      }
    },
    {
      "fullUrl": "urn:uuid:FAKE-UUID",
      "resource": {
        "resourceType": "ActivityDefinition",
        "id": "activity-14",
        "url": "http://d4k.dk/fhir/vulcan-soa/cdisc-pilot-lzzt/ActivityDefinition/ambulatory-ecg-placed",
        "name": "Ambulatory ECG placed",
        "title": "Ambulatory ECG placed",
        "status": "active",
        "description": ""
      },
      "request": {
        "method": "PUT",
        "url": "ActivityDefinition"
      }
    },
    {
      "fullUrl": "urn:uuid:FAKE-UUID",
      "resource": {
        "resourceType": "ActivityDefinition",
        "id": "activity-15",
        "url": "http://d4k.dk/fhir/vulcan-soa/cdisc-pilot-lzzt/ActivityDefinition/ambulatory-ecg-removed",
        "name": "Ambulatory ECG removed",
        "title": "Ambulatory ECG removed",
        "status": "active",
        "description": ""
      },
      "request": {
        "method": "PUT",
        "url": "ActivityDefinition"
      }
    },
    {
      "fullUrl": "urn:uuid:FAKE-UUID",
      "resource": {
        "resourceType": "ActivityDefinition",
        "id": "activity-16",
        "url": "http://d4k.dk/fhir/vulcan-soa/cdisc-pilot-lzzt/ActivityDefinition/ecg",
        "name": "ECG",
        "title": "ECG",
        "status": "active",
        "description": ""
      },
      "request": {
        "method": "PUT",
        "url": "ActivityDefinition"
      }
    },
    {
      "fullUrl": "urn:uuid:FAKE-UUID",
      "resource": {
        "resourceType": "ActivityDefinition",
        "id": "activity-17",
        "url": "http://d4k.dk/fhir/vulcan-soa/cdisc-pilot-lzzt/ActivityDefinition/placebo-tts-test",
        "name": "Placebo TTS test",
        "title": "Placebo TTS test",
        "status": "active",
        "description": ""
      },
      "request": {
        "method": "PUT",
        "url": "ActivityDefinition"
      }
    },
    {
      "fullUrl": "urn:uuid:FAKE-UUID",
      "resource": {
        "resourceType": "ActivityDefinition",
        "id": "activity-18",
        "url": "http://d4k.dk/fhir/vulcan-soa/cdisc-pilot-lzzt/ActivityDefinition/ct-scan",
        "name": "CT scan",
        "title": "CT scan",
        "status": "active",
        "description": ""
      },
      "request": {
        "method": "PUT",
        "url": "ActivityDefinition"
      }
    },
    {
      "fullUrl": "urn:uuid:FAKE-UUID",
      "resource": {
        "resourceType": "ActivityDefinition",
        "id": "activity-19",
        "url": "http://d4k.dk/fhir/vulcan-soa/cdisc-pilot-lzzt/ActivityDefinition/concomitant-medications",
        "name": "Concomitant medications",
        "title": "Concomitant medications",
        "status": "active",
        "description": ""
      },
      "request": {
        "method": "PUT",
        "url": "ActivityDefinition"
      }
    },
    {
      "fullUrl": "urn:uuid:FAKE-UUID",
      "resource": {
        "resourceType": "ActivityDefinition",
        "id": "activity-20",
        "url": "http://d4k.dk/fhir/vulcan-soa/cdisc-pilot-lzzt/ActivityDefinition/hematology",
        "name": "Hematology",
        "title": "Hematology",
        "status": "active",
        "description": ""
      },
      "request": {
        "method": "PUT",
        "url": "ActivityDefinition"
      }
    },
    {
      "fullUrl": "urn:uuid:FAKE-UUID",
      "resource": {
        "resourceType": "ActivityDefinition",
        "id": "activity-21",
        "url": "http://d4k.dk/fhir/vulcan-soa/cdisc-pilot-lzzt/ActivityDefinition/chemistry",
        "name": "Chemistry",
        "title": "Chemistry",
        "status": "active",
        "description": ""
      },
      "request": {
        "method": "PUT",
        "url": "ActivityDefinition"
      }
    },
    {
      "fullUrl": "urn:uuid:FAKE-UUID",
      "resource": {
        "resourceType": "ActivityDefinition",
        "id": "activity-22",
        "url": "http://d4k.dk/fhir/vulcan-soa/cdisc-pilot-lzzt/ActivityDefinition/uninalysis",
        "name": "Uninalysis",
        "title": "Uninalysis",
        "status": "active",
        "description": ""
      },
      "request": {
        "method": "PUT",
        "url": "ActivityDefinition"
      }
    },
    {
      "fullUrl": "urn:uuid:FAKE-UUID",
      "resource": {
        "resourceType": "ActivityDefinition",
        "id": "activity-23",
        "url": "http://d4k.dk/fhir/vulcan-soa/cdisc-pilot-lzzt/ActivityDefinition/plasma-specimen-xanomeline",
        "name": "Plasma Specimen (Xanomeline)",
        "title": "Plasma Specimen (Xanomeline)",
        "status": "active",
        "description": ""
      },
      "request": {
        "method": "PUT",
        "url": "ActivityDefinition"
      }
    },
    {
      "fullUrl": "urn:uuid:FAKE-UUID",
      "resource": {
        "resourceType": "ActivityDefinition",
        "id": "activity-24",
        "url": "http://d4k.dk/fhir/vulcan-soa/cdisc-pilot-lzzt/ActivityDefinition/hemoglobin-a1c",
        "name": "Hemoglobin A1C",
        "title": "Hemoglobin A1C",
        "status": "active",
        "description": ""
      },
      "request": {
        "method": "PUT",
        "url": "ActivityDefinition"
      }
    },
    {
      "fullUrl": "urn:uuid:FAKE-UUID",
      "resource": {
        "resourceType": "ActivityDefinition",
        "id": "activity-25",
        "url": "http://d4k.dk/fhir/vulcan-soa/cdisc-pilot-lzzt/ActivityDefinition/study-drug",
        "name": "Study drug",
        "title": "Study drug record , Medications dispensed, Medications returned",
        "status": "active",
        "description": ""
      },
      "request": {
        "method": "PUT",
        "url": "ActivityDefinition"
      }
    },
    {
      "fullUrl": "urn:uuid:FAKE-UUID",
      "resource": {
        "resourceType": "ActivityDefinition",
        "id": "activity-26",
        "url": "http://d4k.dk/fhir/vulcan-soa/cdisc-pilot-lzzt/ActivityDefinition/tts-acceptability-survey",
        "name": "TTS Acceptability Survey",
        "title": "TTS Acceptability Survey",
        "status": "active",
        "description": ""
      },
      "request": {
        "method": "PUT",
        "url": "ActivityDefinition"
      }
    },
    {
      "fullUrl": "urn:uuid:FAKE-UUID",
      "resource": {
        "resourceType": "ActivityDefinition",
        "id": "activity-27",
        "url": "http://d4k.dk/fhir/vulcan-soa/cdisc-pilot-lzzt/ActivityDefinition/adas-cog",
        "name": "ADAS-Cog",
        "title": "ADAS-Cog",
        "status": "active",
        "description": ""
      },
      "request": {
        "method": "PUT",
        "url": "ActivityDefinition"
      }
    },
    {
      "fullUrl": "urn:uuid:FAKE-UUID",
      "resource": {
        "resourceType": "ActivityDefinition",
        "id": "activity-28",
        "url": "http://d4k.dk/fhir/vulcan-soa/cdisc-pilot-lzzt/ActivityDefinition/cibic",
        "name": "CIBIC+",
        "title": "CIBIC+",
        "status": "active",
        "description": ""
      },
      "request": {
        "method": "PUT",
        "url": "ActivityDefinition"
      }
    },
    {
      "fullUrl": "urn:uuid:FAKE-UUID",
      "resource": {
        "resourceType": "ActivityDefinition",
        "id": "activity-29",
        "url": "http://d4k.dk/fhir/vulcan-soa/cdisc-pilot-lzzt/ActivityDefinition/dad",
        "name": "DAD",
        "title": "DAD",
        "status": "active",
        "description": ""
      },
      "request": {
        "method": "PUT",
        "url": "ActivityDefinition"
      }
    },
    {
      "fullUrl": "urn:uuid:FAKE-UUID",
      "resource": {
        "resourceType": "ActivityDefinition",
        "id": "activity-30",
        "url": "http://d4k.dk/fhir/vulcan-soa/cdisc-pilot-lzzt/ActivityDefinition/npi-x",
        "name": "NPI-X",
        "title": "NPI-X",
        "status": "active",
        "description": ""
      },
      "request": {
        "method": "PUT",
        "url": "ActivityDefinition"
      }
    },
    {
      "fullUrl": "urn:uuid:FAKE-UUID",
      "resource": {
        "resourceType": "ActivityDefinition",
        "id": "activity-31",
        "url": "http://d4k.dk/fhir/vulcan-soa/cdisc-pilot-lzzt/ActivityDefinition/adverse-events",
        "name": "Adverse events",
        "title": "Adverse events",
        "status": "active",
        "description": ""
      },
      "request": {
        "method": "PUT",
        "url": "ActivityDefinition"
      }
    },
    {
      "fullUrl": "urn:uuid:FAKE-UUID",
      "resource": {
        "resourceType": "ActivityDefinition",
        "id": "activity-32",
        "url": "http://d4k.dk/fhir/vulcan-soa/cdisc-pilot-lzzt/ActivityDefinition/check-adverse-events",
        "name": "Check adverse events",
        "title": "Check adverse events",
        "status": "active",
        "description": ""
      },
      "request": {
        "method": "PUT",
        "url": "ActivityDefinition"
      }
    },
    {
      "fullUrl": "urn:uuid:FAKE-UUID",
      "resource": {
        "resourceType": "ActivityDefinition",
        "id": "activity-33",
        "url": "http://d4k.dk/fhir/vulcan-soa/cdisc-pilot-lzzt/ActivityDefinition/supine",
        "name": "Supine",
        "title": "Subject supine",
        "status": "active",
        "description": ""
      },
      "request": {
        "method": "PUT",
        "url": "ActivityDefinition"
      }
    },
    {
      "fullUrl": "urn:uuid:FAKE-UUID",
      "resource": {
        "resourceType": "ActivityDefinition",
        "id": "activity-34",
        "url": "http://d4k.dk/fhir/vulcan-soa/cdisc-pilot-lzzt/ActivityDefinition/vital-signs-supine",
        "name": "Vital Signs Supine",
        "title": "Vital signs while supine",
        "status": "active",
        "description": ""
      },
      "request": {
        "method": "PUT",
        "url": "ActivityDefinition"
      }
    },
    {
      "fullUrl": "urn:uuid:FAKE-UUID",
      "resource": {
        "resourceType": "ActivityDefinition",
        "id": "activity-35",
        "url": "http://d4k.dk/fhir/vulcan-soa/cdisc-pilot-lzzt/ActivityDefinition/stand",
        "name": "Stand",
        "title": "Subject Standing",
        "status": "active",
        "description": ""
      },
      "request": {
        "method": "PUT",
        "url": "ActivityDefinition"
      }
    },
    {
      "fullUrl": "urn:uuid:FAKE-UUID",
      "resource": {
        "resourceType": "ActivityDefinition",
        "id": "activity-36",
        "url": "http://d4k.dk/fhir/vulcan-soa/cdisc-pilot-lzzt/ActivityDefinition/vital-signs-standing",
        "name": "Vital Signs Standing",
        "title": "Vital signs while standing",
        "status": "active",
        "description": ""
      },
      "request": {
        "method": "PUT",
        "url": "ActivityDefinition"
      }
    }
  ]
}